Folder: solcore5/examples/data

Note: examples/data/SiGeSn_k.txt
0.000000248	3.35280966
2.48427E-07	3.36025247
2.48856E-07	3.36781145
2.49286E-07	3.37549336
2.49718E-07	3.38330337
2.50151E-07	3.39124821
2.50586E-07	3.39933518
2.51022E-07	3.40756998
2.5146E-07	3.41595975
2.51899E-07	3.42451223
2.5234E-07	3.43323337
2.52783E-07	3.4421305
2.53227E-07	3.45121106
2.53672E-07	3.46048242
2.54119E-07	3.46995039
2.54568E-07	3.47962272
2.55018E-07	3.48950601
2.5547E-07	3.49960723
2.55923E-07	3.50993205
2.56378E-07	3.52048702
2.56835E-07	3.53127841
2.57293E-07	3.54231106
2.57753E-07	3.55359124
2.58215E-07	3.56512303
2.58678E-07	3.57691137
2.59143E-07	3.5889601
2.5961E-07	3.60127266
2.60078E-07	3.61385325
2.60548E-07	3.62670368
2.6102E-07	3.63982582
2.61493E-07	3.65322238
2.61968E-07	3.66689349
2.62445E-07	3.68084004
2.62924E-07	3.69506169
2.63404E-07	3.70955817
2.63886E-07	3.72432796
2.6437E-07	3.73936887
2.64855E-07	3.75467894
2.65343E-07	3.77025488
2.65832E-07	3.78609361
2.66323E-07	3.80219084
2.66816E-07	3.81854174
2.67311E-07	3.83514288
2.67807E-07	3.85198725
2.68305E-07	3.86907111
2.68806E-07	3.88638922
2.69308E-07	3.90393761
2.69812E-07	3.92171222
2.70317E-07	3.93971002
2.70825E-07	3.95793028
2.71335E-07	3.97637292
2.71846E-07	3.99504033
2.7236E-07	4.01393518
2.72875E-07	4.03306132
2.73393E-07	4.05242049
2.73912E-07	4.07201094
2.74433E-07	4.09182553
2.74957E-07	4.1118473
2.75482E-07	4.13204502
2.76009E-07	4.15237052
2.76539E-07	4.17275594
2.7707E-07	4.19311491
2.77604E-07	4.21333472
2.78139E-07	4.23328541
2.78677E-07	4.25281963
2.79216E-07	4.27177615
2.79758E-07	4.28998706
2.80302E-07	4.30727789
2.80848E-07	4.32347869
2.81396E-07	4.33842344
2.81946E-07	4.35195255
2.82499E-07	4.3639175
2.83053E-07	4.37417834
2.8361E-07	4.38260691
2.84169E-07	4.38908475
2.8473E-07	4.39350441
2.85294E-07	4.39577021
2.85859E-07	4.395799
2.86427E-07	4.39352156
2.86997E-07	4.38888501
2.8757E-07	4.38185401
2.88144E-07	4.37241421
2.88721E-07	4.36057272
2.89301E-07	4.34635998
2.89882E-07	4.3298305
2.90466E-07	4.3110641
2.91052E-07	4.290165
2.91641E-07	4.26725941
2.92232E-07	4.24249461
2.92826E-07	4.21603726
2.93422E-07	4.18806727
2.9402E-07	4.1587797
2.94621E-07	4.12837535
2.95224E-07	4.09705887
2.9583E-07	4.06503591
2.96438E-07	4.03250693
2.97049E-07	3.99966446
2.97662E-07	3.9666915
2.98278E-07	3.933756
2.98896E-07	3.90101003
2.99517E-07	3.86858957
3.0014E-07	3.83661214
3.00766E-07	3.80517301
3.01395E-07	3.77435502
3.02027E-07	3.74421868
3.0266E-07	3.7148091
3.03297E-07	3.68615649
3.03936E-07	3.65827996
3.04579E-07	3.63118475
3.05223E-07	3.60486475
3.05871E-07	3.5793109
3.06521E-07	3.55450432
3.07174E-07	3.53042333
3.0783E-07	3.5070416
3.08488E-07	3.48433342
3.0915E-07	3.46226962
3.09814E-07	3.44082199
3.10481E-07	3.41996342
3.11151E-07	3.39966733
3.11824E-07	3.3799088
3.125E-07	3.36066333
3.13179E-07	3.34190921
3.1386E-07	3.32362576
3.14545E-07	3.30579392
3.15233E-07	3.28839592
3.15924E-07	3.27141634
3.16617E-07	3.2548393
3.17314E-07	3.23865217
3.18014E-07	3.22284116
3.18717E-07	3.20739348
3.19423E-07	3.19229905
3.20132E-07	3.17754539
3.2

Note: examples/data/SiGeSn_n.txt
0.000000248	1.42079282
2.48427E-07	1.4268072
2.48856E-07	1.43282518
2.49286E-07	1.4388493
2.49718E-07	1.44488111
2.50151E-07	1.45092359
2.50586E-07	1.45698045
2.51022E-07	1.46305449
2.5146E-07	1.46915001
2.51899E-07	1.47527213
2.5234E-07	1.48142511
2.52783E-07	1.48761478
2.53227E-07	1.49384747
2.53672E-07	1.50013012
2.54119E-07	1.50646916
2.54568E-07	1.51287299
2.55018E-07	1.51934989
2.5547E-07	1.52590908
2.55923E-07	1.53255965
2.56378E-07	1.53931197
2.56835E-07	1.54617703
2.57293E-07	1.5531656
2.57753E-07	1.56029017
2.58215E-07	1.56756265
2.58678E-07	1.57499622
2.59143E-07	1.58260424
2.5961E-07	1.59040051
2.60078E-07	1.59840023
2.60548E-07	1.60661776
2.6102E-07	1.61506836
2.61493E-07	1.62376858
2.61968E-07	1.63273409
2.62445E-07	1.64198182
2.62924E-07	1.65152859
2.63404E-07	1.66139209
2.63886E-07	1.67158981
2.6437E-07	1.68213953
2.64855E-07	1.69305981
2.65343E-07	1.70436894
2.65832E-07	1.71608598
2.66323E-07	1.7282296
2.66816E-07	1.74081865
2.67311E-07	1.75387334
2.67807E-07	1.76741153
2.68305E-07	1.78145377
2.68806E-07	1.79601961
2.69308E-07	1.81112966
2.69812E-07	1.82680451
2.70317E-07	1.84306577
2.70825E-07	1.85993756
2.71335E-07	1.87744586
2.71846E-07	1.89562122
2.7236E-07	1.9144985
2.72875E-07	1.93412018
2.73393E-07	1.954536
2.73912E-07	1.97580512
2.74433E-07	1.99799777
2.74957E-07	2.02119428
2.75482E-07	2.04548253
2.76009E-07	2.07095648
2.76539E-07	2.09771229
2.7707E-07	2.12584758
2.77604E-07	2.15544598
2.78139E-07	2.18658187
2.78677E-07	2.21931218
2.79216E-07	2.25367115
2.79758E-07	2.28967292
2.80302E-07	2.32730122
2.80848E-07	2.36652308
2.81396E-07	2.40728271
2.81946E-07	2.44950151
2.82499E-07	2.49308975
2.83053E-07	2.53793746
2.8361E-07	2.5839276
2.84169E-07	2.63092722
2.8473E-07	2.67879194
2.85294E-07	2.72736817
2.85859E-07	2.77648911
2.86427E-07	2.82598144
2.86997E-07	2.87565526
2.8757E-07	2.92531818
2.88144E-07	2.9747643
2.88721E-07	3.02378729
2.89301E-07	3.07217903
2.89882E-07	3.11973295
2.90466E-07	3.16624575
2.91052E-07	3.21152323
2.91641E-07	3.25538594
2.92232E-07	3.29767058
2.92826E-07	3.33823156
2.93422E-07	3.37694858
2.9402E-07	3.41372071
2.94621E-07	3.44847579
2.95224E-07	3.48116763
2.9583E-07	3.51177491
2.96438E-07	3.54030271
2.97049E-07	3.56677985
2.97662E-07	3.59125573
2.98278E-07	3.61379993
2.98896E-07	3.63449813
2.99517E-07	3.65344825
3.0014E-07	3.67075826
3.00766E-07	3.68654455
3.01395E-07	3.700924
3.02027E-07	3.71401661
3.0266E-07	3.72594005
3.03297E-07	3.73680804
3.03936E-07	3.74672807
3.04579E-07	3.75580176
3.05223E-07	3.76412351
3.05871E-07	3.77177813
3.06521E-07	3.77884321
3.07174E-07	3.78538766
3.0783E-07	3.79147294
3.08488E-07	3.7971524
3.0915E-07	3.80247331
3.09814E-07	3.8074765
3.10481E-07	3.81219727
3.11151E-07	3.81666627
3.11824E-07	3.82091007
3.125E-07	3.82495198
3.13179E-07	3.82881221
3.1386E-07	3.83250874
3.14545E-07	3.83605761
3.15233E-07	3.83947338
3.15924E-07	3.84276922
3.16617E-07	3.84595767
3.17314E-07	3.84905017
3.18014E-07	3.85205798
3.18717E-07	3.85499194
3.19423E-07	3.85786218
3.20132E-07	3.860679

Note: README.md
[![DOI](https://zenodo.org/badge/DOI/10.5281/zenodo.1185316.svg)](https://doi.org/10.5281/zenodo.1185316) [![Documentation Status](https://readthedocs.org/projects/solcore5/badge/?version=latest)](http://solcore5.readthedocs.io/en/latest/?badge=latest)

Solcore
=======

**Solcore** was born as a modular set of tools, written (almost) entirely in Python 3, to address some of the task we had to solve more. With time, however, it has evolved as a complete semiconductor solver able of modelling the optical and electrical properties of a wide range of solar cells, from quantum well devices to multi-junction solar cells. 

Please, visit [Solcore\'s Documentation](http://solcore5.readthedocs.io), the [Tutorial](docs/source/Examples/tutorial.rst) for a step-by-step example of how to use *Solcore* to model a solar cell and also check the [Examples folder](examples) for more specific information and examples of usage. 

![infographics](docs/source/Infographics.jpg "Overview of Solcore")

Contributors
------------

Solcore is the result of many years of developement by many people,
trying to put together in a consistent way the tools that the [Quantum
Photovoltaics Group at Imperial College London](https://www.imperial.ac.uk/quantum-photovoltaics/) needs for its
research in solar cells and photovoltaics. The list of contributors
(hopefully I am not forgetting anyone!) is:

-   Diego Alonso-Álvarez
-   Thomas Wilson
-   Phoebe Pearce
-   Markus Führer
-   Daniel Farrel
-   Tomos Thomas
-   Alvin Chan
-   Ned Ekins-Daukes

File: ge_ellipsometry_data.dat
Ge sylarus wafer 300-1700nm, 75-77-79 deg, AR on, alignment detector out
VASEmethod[EllipsometerType=5, Isotropic+Depolarization, AutoRetarder=1, TrackPol=1, Pol>=0, Revs=5.0, AutoSlit=1700, WVASE=3.862, HardVer=6.256, Fri Jan 06 16:36:41 2017]
Original[ge_sylarus_wafer_scan_300_1700nm_75_77_79_alignment_out_ar.dat]
nm
300	75	27.7084	102.1311	0.047283	0.140573
320	75	24.7731	101.195	0.0458801	0.150452
340	75	23.1253	101.326	0.0405691	0.137295
360	75	21.84668	102.4158	0.0441854	0.159722
380	75	20.5171	103.918	0.0368676	0.139064
400	75	19.2214	104.018	0.0374076	0.148076
420	75	18.687	102.7018	0.0400119	0.162951
440	75	18.7793	102.945	0.0361709	0.145279
460	75	18.9768	104.73	0.0372662	0.151792
480	75	19.1598	107.642	0.0314089	0.128002
500	75	19.3161	111.152	0.0307013	0.127736
520	75	19.435	116.197	0.0280197	0.119428
540	75	18.75292	122.526	0.0278724	0.128907
560	75	17.8985	126.468	0.0176142	0.0859794
580	75	17.6472	132.473	0.0172297	0.0898585
600	75	16.0529	140.037	0.014616	0.0887783
620	75	14.177	143.34	0.0219271	0.147143
640	75	12.7585	144.755	0.0210278	0.159739
660	75	11.6937	145.423	0.0159344	0.134741
680	75	10.8488	145.723	0.0213742	0.187075
700	75	10.1668	145.82	0.0198936	0.18804
720	75	9.59546	146.006	0.0179195	0.18305
740	75	9.08287	146.025	0.0223581	0.230585
760	75	8.657877	146.085	0.0175855	0.192202
780	75	8.288619	146.053	0.0170308	0.195643
800	75	7.95624	146.083	0.022962	0.262294
820	75	7.64378	146.155	0.019188	0.230192
840	75	7.39946	146.191	0.0183487	0.228594
860	75	7.15705	146.232	0.0213419	0.260482
880	75	6.9354	146.455	0.0167836	0.21414
900	75	6.75753	146.4807	0.0180555	0.237401
920	75	6.58078	146.471	0.0230648	0.297722
940	75	6.40696	146.662	0.0215313	0.285285
960	75	6.25787	146.793	0.0195629	0.266068
980	75	6.11364	147.067	0.0203605	0.285955
1000	75	5.99042	147.224	0.0211531	0.289358
1020	75	5.8669	147.4521	0.0233837	0.326427
1040	75	5.76365	147.651	0.0227356	0.323911
1060	75	5.64742	148.016	0.0173471	0.255203
1080	75	5.53535	148.43	0.0187475	0.269677
1100	75	5.44417	148.717	0.0191817	0.281613
1120	75	5.351717	149.105	0.0184114	0.276556
1140	75	5.2563	149.487	0.0217617	0.31842
1160	75	5.163269	149.9192	0.0209644	0.313177
1180	75	5.0732	150.302	0.019549	0.298813
1200	75	4.98722	150.579	0.0197151	0.306672
1220	75	4.90476	150.912	0.0183812	0.278017
1240	75	4.830512	151.144	0.0270529	0.412444
1260	75	4.75513	151.443	0.0199082	0.31147
1280	75	4.69869	151.649	0.0198598	0.316306
1300	75	4.63519	151.948	0.0205285	0.317337
1320	75	4.58862	152.281	0.0199343	0.312739
1340	75	4.52934	152.321	0.0252307	0.398989
1430	75	4.34078	154.473	0.0553186	0.904859
1450	75	4.31491	155.084	0.0173794	0.287795
1470	75	4.2625	156.038	0.0217158	0.351449
1490	75	4.22138	156.586	0.0223435	0.368292
1510	75	4.15713	157.136	0.0235536	0.39406
1530	75	4.102427	157.524	0.0214107	0.363175
1550	75	4.081614	158.327	0.0202072	0.348667
1570	75	4.02181	159.466	0.0229079	0.384339
1590	75	3.97495	160.3555	0.0207386	0.357292
1610	75	4.17638	161.546	0.0215282	0.402131
1630	75	4.50807	162.89	0.0196709	0.404069
1650	75	4.84515	164.238	0.0182941	0.39228
1670	75	5.20711	165.821	0.013919	0.32436
1690	75	5.51213	167.403	0.0234649	0.589591
305	77	26.4723	90.6415	0.0400038	0.118792
325	77	24.0546	89.0771	0.0446461	0.145646
345	77	22.5249	88.9417	0.0421807	0.141182
365	77	21.1848	89.68502	0.0445495	0.160543
385	77	19.7522	90.22052	0.0450577	0.168605
405	77	18.6176	88.9508	0.0446411	0.179991
425	77	18.3689	87.7427	0.0454284	0.18174
445	77	18.4787	88.6056	0.0430305	0.168736
465	77	18.5386	90.8702	0.0393149	0.15739
485	77	18.5221	94.0554	0.0401385	0.158659
505	77	18.4281	98.0395	0.0387234	0.158079
525	77	18.1141	104.054	0.0316832	0.132657
545	77	16.8043	109.963	0.0280907	0.129542
565	77	15.9392	113.563	0.0244608	0.121461
585	77	15.0411	121.4867	0.0189003	0.104961
605	77	12.7577	127.568	0.0189613	0.12591
625	77	10.7945	128.9823	0.0137667	0.108363
645	77	9.3859	128.457	0.0136368	0.1232
665	77	8.358592	127.127	0.0169465	0.162556
685	77	7.5565	125.625	0.0132654	0.135869
705	77	6.9099	124.019	0.0116729	0.125263
725	77	6.371	122.324	0.0109589	0.121727
745	77	5.91249	120.5126	0.00831732	0.0932968
765	77	5.52016	118.627	0.0147872	0.176573
785	77	5.18851	116.857	0.0116883	0.141305
805	77	4.89784	115.1168	0.0105641	0.128607
825	77	4.64958	113.374	0.00953044	0.117247
845	77	4.42668	111.7	0.0128767	0.158507
865	77	4.21465	109.93	0.0115167	0.142594
885	77	4.04925	108.361	0.0118476	0.14692
905	77	3.87566	106.682	0.0125904	0.155816
925	77	3.73481	105.162	0.0110454	0.138185
945	77	3.60317	103.742	0.0110104	0.137339
965	77	3.47736	102.21	0.0126942	0.157449
985	77	3.36831	100.899	0.0121288	0.149861
1005	77	3.26252	99.4527	0.012699	0.159144
1025	77	3.155818	98.0627	0.0151003	0.188534
1045	77	3.06523	96.9582	0.0119335	0.148905
1065	77	2.97666	95.666	0.00936627	0.11589
1085	77	2.88823	94.3713	0.00943528	0.119289
1105	77	2.789423	93.17572	0.010192	0.1283
1125	77	2.71379	92.0838	0.0100882	0.126167
1145	77	2.62419	90.7928	0.00926578	0.118516
1165	77	2.54868	89.3944	0.00955156	0.121998
1185	77	2.48713	88.0448	0.00908416	0.115537
1205	77	2.41866	86.4445	0.00892502	0.113162
1225	77	2.35846	85.0685	0.012672	0.163859
1245	77	2.31759	83.6511	0.018189	0.235489
1265	77	2.26502	82.07972	0.00898857	0.116527
1285	77	2.21895	80.9976	0.0109679	0.141474
1305	77	2.17561	79.8573	0.00611544	0.0804724
1325	77	2.13077	78.6682	0.0184618	0.243569
1345	77	2.14822	77.7813	0.0415555	0.548651
1435	77	1.92274	73.6219	0.0799606	1.08493
1455	77	1.85605	72.416	0.019447	0.265286
1475	77	1.8086	70.9242	0.00912451	0.127626
1495	77	1.76008	69.5055	0.0110231	0.15462
1515	77	1.7122	67.5018	0.0156949	0.223053
1535	77	1.690412	65.8797	0.0138525	0.199004
1555	77	1.636102	65.0014	0.0104665	0.152167
1575	77	1.56525	61.9297	0.0124435	0.185436
1595	77	1.814	58.1999	0.0139069	0.252356
1615	77	2.712647	52.7147	0.00802131	0.224356
1635	77	3.5705	46.9652	0.00631018	0.235702
1655	77	4.29402	41.112	0.00838722	0.370785
1675	77	4.96309	35.423	0.00874412	0.448494
1695	77	5.47709	30.13665	0.017281	0.993361
310	79	26.0486	77.1148	0.0432039	0.133682
330	79	24.1293	75.3272	0.0459519	0.1542
350	79	22.7398	74.7494	0.0429029	0.149063
370	79	21.3716	74.9096	0.0438558	0.161912
390	79	19.9695	74.1562	0.0431371	0.167683
410	79	19.2102	72.1076	0.0470676	0.193271
430	79	19.16572	71.312	0.048952	0.200291
450	79	19.1894	72.5863	0.0473567	0.194611
470	79	19.0585	74.9204	0.0447588	0.181175
490	79	18.7841	78.1899	0.0424948	0.169645
510	79	18.3586	82.3936	0.0403766	0.164697
530	79	17.3674	88.3042	0.0354692	0.148019
550	79	15.6483	92.0697	0.0329434	0.148756
570	79	14.6742	95.6854	0.0287476	0.141597
590	79	12.7204	103.096	0.023944	0.135885
610	79	10.06121	104.086	0.0236943	0.171183
630	79	8.336132	99.8751	0.0212867	0.177675
650	79	7.26497	94.128	0.0216933	0.194582
670	79	6.5799	88.11631	0.0214761	0.208495
690	79	6.12339	82.2152	0.0208552	0.210526
710	79	5.81858	76.577	0.0225916	0.237083
730	79	5.62159	71.4409	0.0229986	0.254156
750	79	5.49537	66.6766	0.0229498	0.262923
770	79	5.4184	62.5458	0.0231494	0.274753
790	79	5.37859	58.597	0.0248805	0.302181
810	79	5.36452	55.1651	0.0238292	0.297725
830	79	5.36392	52.3986	0.0249747	0.322572
850	79	5.37862	49.5054	0.0256938	0.338915
870	79	5.39459	47.01598	0.0263019	0.346705
890	79	5.41928	44.8882	0.0242924	0.329139
910	79	5.44627	42.8821	0.0241704	0.335046
930	79	5.47121	41.0731	0.0255627	0.346782
950	79	5.4986	39.4245	0.025227	0.348954
970	79	5.53059	37.8675	0.0229054	0.323042
990	79	5.55171	36.4009	0.0256559	0.354633
1010	79	5.57741	35.2451	0.0253541	0.353188
1030	79	5.60003	33.933	0.026463	0.373908
1050	79	5.62323	32.699	0.0246457	0.354471
1070	79	5.645082	31.6569	0.0213265	0.30113
1090	79	5.66007	30.6792	0.0205768	0.295498
1110	79	5.67659	29.3855	0.0179859	0.262862
1130	79	5.69074	28.4969	0.0186918	0.27732
1150	79	5.70568	27.498	0.0205905	0.295797
1170	79	5.72758	26.4192	0.0205633	0.300109
1190	79	5.75365	25.6646	0.0209886	0.31074
1210	79	5.78715	24.7734	0.0190369	0.285284
1230	79	5.80967	24.1042	0.0214547	0.30935
1250	79	5.831811	23.3815	0.026027	0.376825
1270	79	5.85677	22.7457	0.0186412	0.276473
1290	79	5.88063	22.1177	0.0192413	0.287921
1310	79	5.89609	21.5246	0.0214888	0.310183
1330	79	5.90806	21.0264	0.0212011	0.30805
1350	79	5.91687	20.4877	0.0405259	0.594665
1440	79	5.953928	18.0943	0.0269699	0.399056
1460	79	5.93141	17.5137	0.0199518	0.301058
1480	79	5.94463	16.7373	0.0211785	0.311156
1500	79	5.95913	16.1137	0.0189522	0.280832
1520	79	5.98438	15.45292	0.0183579	0.274583
1540	79	5.99044	14.9588	0.0195682	0.296399
1560	79	5.97647	14.26057	0.0219315	0.321451
1580	79	6.00537	13.1599	0.0228861	0.338719
1600	79	6.29355	12.08461	0.0198378	0.300537
1620	79	6.89689	10.8518	0.0216916	0.342672
1640	79	7.57383	9.60882	0.0205315	0.318924
1660	79	8.20463	8.38629	0.0209967	0.332404
1680	79	8.80247	7.12317	0.0217816	0.350171
1700	79	9.36393	6.02898	0.0627814	1.01425